Folder: Rohit_battery/v1

Note: README.md
for v1 (default)
python3 pybamm_fawkes_generator.py --batteries 300 --samples 100 --output battery_data_v7.csv
python3 enhanced_trainer_v5_full_physics.py --data battery_training_data_v6_fawkes.csv --epochs 100 --output bess_model_v6_fawkes.pt
python3 inference_debug_v5_modak.py --data testing_fawkes.csv --model bess_model_v6_fawkes.pt
python3 deepseek_inference.py --data testing_fawkes.csv --model model_v5_verbose_deepseek.pt
python3 modak_scorer.py inference_results_v5_modak.csv


for v3_600_batteries 
python3 pybamm_fawkes_generator.py --batteries 600 --samples 100 --output battery_data_v7.csv
python3 enhanced_trainer_v5_full_physics.py --data battery_training_data_v6_fawkes.csv --epochs 250 --output bess_model_v6_fawkes.pt
python3 inference_debug_v5_modak.py --data testing_fawkes.csv --model bess_model_v6_fawkes.pt
python3 deepseek_inference.py --data testing_fawkes.csv --model model_v5_verbose_deepseek.pt
python3 modak_scorer.py inference_results_v5_modak.csv


for v4_1k_batteries 
python3 pybamm_fawkes_generator.py --batteries 1000 --samples 100 --output battery_data_v7.csv
python3 enhanced_trainer_v5_full_physics.py --data battery_training_data_v6_fawkes.csv --epochs 500 --output bess_model_v6_fawkes.pt
python3 inference_debug_v5_modak.py --data testing_fawkes.csv --model bess_model_v6_fawkes.pt
python3 deepseek_inference.py --data testing_fawkes.csv --model model_v5_verbose_deepseek.pt
python3 modak_scorer.py inference_results_v5_modak.csv



for v5_2k_batteries 
python3 pybamm_fawkes_generator.py --batteries 2000 --samples 100 --output battery_data_v7.csv
python3 enhanced_trainer_v5_full_physics.py --data battery_training_data_v6_fawkes.csv --epochs 1000 --output bess_model_v6_fawkes.pt
python3 inference_debug_v5_modak.py --data testing_fawkes.csv --model bess_model_v6_fawkes.pt
python3 deepseek_inference.py --data testing_fawkes.csv --model model_v5_verbose_deepseek.pt
python3 modak_scorer.py inference_results_v5_modak.csv

File: battery_training_data_v6_fawkes.csv
current,voltage,temperature,cell_voltage_min,soc,cycle_count,internal_resistance,charge_capacity,discharge_capacity,c_rate,dod,soh,cell_voltage_max,mfg_rated_cycles,calendar_age_days,chemistry_type
10.49,3.7024,28.6,3.6904,0.5908,0,0.026498,42.53,42.06,0.2419,0.3588,0.9945,3.7144,1768,48,0.0
-17.86,3.7014,20.0,3.6947,0.6009,213,0.03374,59.61,61.54,0.2846,0.5969,0.9844,3.7081,2762,599,0.0
25.98,2.9481,30.0,2.9459,0.1615,1033,0.030549,60.01,59.55,0.4213,0.5519,0.9598,2.9503,3264,2668,1.0
90.93,3.8388,36.5,3.818,0.6963,109,0.034995,52.63,52.24,1.6424,0.381,0.9428,3.8596,1094,159,0.0
-6.02,3.859,18.2,3.8402,0.7274,192,0.031304,48.65,47.72,0.1188,0.5234,0.9669,3.8778,1518,291,0.0
-9.14,3.6034,24.0,3.5982,0.5253,438,0.037371,42.31,42.79,0.2092,0.3597,0.9221,3.6085,997,658,0.0
-27.67,3.7207,34.8,3.7096,0.6028,149,0.031015,52.76,52.33,0.535,0.5104,0.9742,3.7318,2222,230,0.0
-40.88,3.3989,24.2,3.3918,0.3213,214,0.03471,48.46,47.52,0.7572,0.7627,0.9256,3.4059,1129,966,0.0
33.29,3.4088,40.2,3.4005,0.7111,64,0.023371,61.65,58.52,0.5049,0.5631,0.9843,3.4172,3257,241,1.0
-34.26,3.4235,25.8,3.4002,0.7385,59,0.026211,103.14,100.87,0.3191,0.6557,0.9903,3.4468,4113,328,1.0
-33.55,3.7157,34.2,3.7087,0.5934,87,0.032817,47.27,46.99,0.7053,0.6043,0.9628,3.7227,1429,281,0.0
-12.02,3.9287,26.9,3.8958,0.7605,3,0.031292,51.83,50.6,0.2364,0.5879,0.9822,3.9615,1647,170,0.0
35.48,3.7807,32.2,3.7805,0.6515,145,0.032026,50.49,50.2,0.6934,0.316,0.954,3.7809,1103,284,0.0
-33.21,4.0336,36.6,4.0215,0.8491,755,0.042245,37.88,35.89,0.7593,0.4772,0.818,4.0456,1138,1561,0.0
-31.61,3.5881,19.6,3.5853,0.5037,54,0.027662,49.18,47.24,0.6433,0.3406,0.9776,3.5909,1549,195,0.0
59.68,3.464,18.0,3.4521,0.7595,76,0.024395,97.57,96.67,0.5637,0.895,0.9878,3.4759,4439,211,1.0
-11.75,3.8242,32.3,3.8051,0.6685,35,0.028713,59.35,57.12,0.2119,0.5343,0.9821,3.8433,1872,126,0.0
-81.27,3.8302,25.4,3.7811,0.6789,98,0.033201,49.08,48.41,1.5311,0.559,0.9754,3.8792,1654,183,0.0
-8.48,3.8292,40.9,3.8174,0.6986,33,0.03146,48.07,48.72,0.1697,0.4069,0.9759,3.841,1709,172,0.0
17.4,3.1825,45.0,3.1662,0.4795,247,0.022842,49.04,49.49,0.351,0.673,0.9827,3.1988,3031,287,1.0
-7.12,3.427,28.2,3.4247,0.7243,77,0.024734,61.24,62.22,0.111,0.6591,0.9962,3.4293,3843,310,1.0
-31.98,3.9868,31.2,3.9733,0.8049,69,0.028273,55.4,55.91,0.5571,0.259,0.9847,4.0004,2401,105,0.0
-24.13,3.3993,34.2,3.3968,0.6963,14,0.025686,106.25,108.17,0.2227,0.2972,1.0,3.4018,5149,54,1.0
17.45,3.796,27.8,3.784,0.6673,510,0.033683,48.1,48.34,0.3351,0.6599,0.9111,3.8081,1027,612,0.0
9.61,3.5158,32.5,3.5038,0.4173,574,0.02921,64.02,63.23,0.1398,0.6554,0.951,3.5277,2669,748,0.0
-11.81,3.4302,25.2,3.4265,0.7475,626,0.025947,55.64,55.32,0.2132,0.1264,0.9933,3.4339,3779,542,1.0
-52.48,3.1809,41.7,3.1805,0.4389,38,0.023873,67.03,68.31,0.7419,0.7756,0.9906,3.1814,3534,91,1.0
-12.39,3.444,39.9,3.4271,0.3903,520,0.035422,42.61,44.29,0.2364,0.6045,0.8638,3.461,1142,709,0.0
-7.1,3.5079,20.3,3.5042,0.4384,116,0.031276,48.84,49.38,0.1551,0.4221,0.9549,3.5115,851,307,0.0
11.57,3.2674,23.0,3.2492,0.5471,170,0.026268,65.55,65.62,0.17,0.4073,0.989,3.2856,3378,221,1.0
35.76,3.9062,35.1,3.9041,0.7646,101,0.02976,44.8,44.56,0.766,0.5584,0.9494,3.9083,1005,192,0.0
18.45,3.6395,26.6,3.6346,0.5364,234,0.033008,51.91,49.84,0.3866,0.3041,0.9498,3.6444,1397,342,0.0
52.6,4.026,34.4,4.0207,0.8391,6,0.028547,50.41,47.45,1.0559,0.2904,0.9778,4.0313,890,93,0.0
-38.09,3.95,22.6,3.8825,0.8035,18,0.02759,64.07,64.63,0.5808,0.2379,0.989,4.0175,2877,156,0.0
10.48,4.0601,35.6,4.047,0.8832,518,0.032255,54.12,56.3,0.1691,0.6252,0.9395,4.0732,2121,598,0.0
-40.77,3.8099,32.0,3.8055,0.6723,542,0.033692,52.96,52.66,0.7404,0.7744,0.9047,3.8143,1294,708,0.0
72.65,3.3794,35.5,3.369,0.6773,197,0.025905,104.42,100.96,0.703,0.4399,0.9868,3.3899,4010,344,1.0
22.85,3.819,32.0,3.8182,0.6789,35,0.032033,48.2,46.64,0.4655,0.2955,0.9634,3.8199,1160,219,0.0
35.36,3.2143,34.5,3.2109,0.5101,310,0.027104,102.12,102.21,0.3275,0.6108,0.9896,3.2177,5881,489,1.0
-17.33,3.9282,28.7,3.9277,0.7584,172,0.030154,67.71,68.59,0.2592,0.4278,0.9785,3.9286,2558,302,0.0
8.89,3.8238,37.1,3.8217,0.6992,279,0.037283,38.62,38.24,0.1838,0.3969,0.8529,3.826,874,1390,0.0
33.98,3.4252,24.5,3.3889,0.3459,214,0.031163,46.2,45.51,0.7343,0.5865,0.9338,3.4615,1056,558,0.0
12.68,3.9828,38.5,3.9816,0.8179,74,0.032245,52.44,52.07,0.224,0.0781,0.9423,3.984,969,231,0.0
31.35,3.7488,15.4,3.7297,0.6421,53,0.033445,46.41,45.51,0.6523,0.3889,0.9719,3.7679,1161,202,0.0
-11.57,3.3199,45.0,3.3195,0.6251,28,0.027481,55.94,56.65,0.201,0.329,0.9916,3.3203,2748,180,1.0
30.48,3.7185,18.5,3.6799,0.6068,1056,0.035348,41.07,41.95,0.6489,0.4796,0.9151,3.7571,1390,1494,0.0
-14.34,3.8216,29.0,3.8202,0.6938,632,0.034907,49.3,49.48,0.2575,0.3967,0.9116,3.8229,1931,1969,0.0
12.95,3.9823,33.5,3.9815,0.8244,231,0.027803,48.19,48.03,0.2728,0.1421,0.957,3.9832,1739,384,0.0
203.49,3.3827,28.2,3.3819,0.693,34,0.022915,103.52,102.18,1.9142,0.4965,1.0,3.3835,5758,101,1.0
-17.88,3.2444,21.5,3.2404,0.5448,508,0.028589,110.77,110.08,0.1623,0.7085,0.9899,3.2484,5507,566,1.0
11.16,3.2052,17.2,3.2037,0.4845,247,0.02607,82.61,81.95,0.1294,0.4187,0.9848,3.2066,4710,1194,1.0
76.55,3.0739,40.9,3.0682,0.3211,154,0.024768,113.47,116.49,0.6757,0.5105,0.9963,3.0796,5334,486,1.0
-39.35,3.5577,29.6,3.5522,0.4656,56,0.030303,53.1,57.98,0.6619,0.5155,0.9862,3.5631,2568,231,0.0
8.95,3.9498,27.3,3.9287,0.8132,75,0.029964,49.65,50.31,0.1751,0.3179,0.9889,3.9708,2073,229,0.0
-31.0,3.4183,25.6,3.4088,0.7525,135,0.025578,67.27,67.17,0.4229,0.5408,0.9899,3.4277,2174,322,1.0
10.24,3.9866,31.3,3.9776,0.8286,24,0.027639,61.16,60.2,0.1615,0.434,0.9803,3.9957,2549,202,0.0
29.48,3.3773,36.6,3.3493,0.6896,891,0.024367,50.6,52.18,0.5415,0.2806,0.9512,3.4052,2935,1247,1.0
-23.09,3.5423,25.8,3.5355,0.4528,946,0.025722,63.56,61.18,0.347,0.6466,0.9579,3.5492,2764,767,0.0
14.0,3.8437,34.1,3.8277,0.7163,81,0.028733,44.22,43.48,0.3195,0.546,0.963,3.8597,1063,149,0.0
-18.27,3.2143,34.1,3.211,0.4957,218,0.023299,63.97,63.83,0.2693,0.3992,0.9742,3.2176,2109,315,1.0
-11.5,3.924,29.9,3.9194,0.7786,117,0.034119,49.19,50.29,0.2193,0.2426,0.9473,3.9286,956,289,0.0
-15.82,3.1839,45.0,3.1805,0.456,116,0.02862,87.52,89.39,0.17,0.5312,0.9893,3.1873,4967,201,1.0
16.74,3.897,36.8,3.8968,0.7368,49,0.031071,55.73,57.02,0.2862,0.7464,0.9865,3.8972,2596,172,0.0
-16.42,3.5806,33.7,3.5781,0.4779,140,0.029576,43.02,43.69,0.3419,0.554,0.9622,3.5831,1180,199,0.0
-5.72,4.0098,26.5,4.008,0.8562,21,0.032103,46.12,44.87,0.132,0.05,0.9551,4.0116,819,139,0.0
-60.85,3.4714,20.4,3.4661,0.7888,36,0.023631,112.64,118.08,0.5183,0.2735,0.9999,3.4767,5043,204,1.0
24.86,3.3186,28.2,3.3155,0.6147,117,0.025358,112.44,108.53,0.2099,0.4647,0.9916,3.3217,4023,221,1.0
69.33,3.1289,17.8,3.1189,0.3955,1269,0.028097,112.73,112.28,0.58,0.6106,0.9839,3.139,4528,1143,1.0
26.62,3.3101,21.5,3.3057,0.5993,1340,0.02312,74.76,70.08,0.361,0.5949,0.9726,3.3145,3589,1746,1.0
-37.87,3.5623,12.0,3.5479,0.8707,443,0.02462,92.58,91.25,0.4163,0.3727,0.9808,3.5768,5124,575,1.0
22.04,3.6569,17.1,3.647,0.5382,305,0.033736,50.68,53.41,0.3873,0.4038,0.9421,3.6668,1084,486,0.0
13.6,4.1404,19.7,4.1317,0.9238,432,0.032806,49.02,51.31,0.2731,0.0824,0.9491,4.149,1962,1291,0.0
-37.75,3.3663,30.2,3.366,0.6732,98,0.028897,105.84,104.97,0.3549,0.6511,0.9929,3.3666,5262,355,1.0
117.7,4.0329,14.2,4.031,0.865,123,0.029745,52.93,51.6,1.9196,0.847,0.9674,4.0347,1009,222,0.0
-14.32,3.91,30.4,3.8941,0.7838,96,0.030338,53.28,55.24,0.2521,0.7048,0.9836,3.9259,2815,573,0.0
14.71,3.1114,42.9,3.0647,0.3788,56,0.028907,70.81,71.45,0.2005,0.7051,0.9933,3.1581,3922,162,1.0
-13.92,3.295,9.9,3.2673,0.5998,28,0.022721,76.01,73.63,0.1825,0.4476,0.9923,3.3227,3056,91,1.0
-88.38,3.7271,31.4,3.6777,0.599,57,0.02971,50.16,49.68,1.7326,0.4394,0.9707,3.7766,1023,79,0.0
22.43,4.0407,38.0,4.0181,0.8579,850,0.033648,54.48,55.0,0.3672,0.7647,0.9262,4.0632,2850,819,0.0
51.13,3.8579,37.9,3.8538,0.7164,283,0.035574,51.13,53.26,0.9318,0.3528,0.9519,3.862,2565,992,0.0
7.68,4.0877,14.4,4.0766,0.8964,191,0.030958,52.21,53.2,0.1417,0.7032,0.9592,4.0987,1297,430,0.0
16.76,3.9761,39.5,3.9725,0.8263,382,0.035633,52.86,55.62,0.2852,0.05,0.9223,3.9797,1736,711,0.0
-25.48,3.7031,31.7,3.7011,0.5751,236,0.033016,49.18,48.08,0.4716,0.5123,0.9529,3.7051,1388,455,0.0
18.05,3.5843,32.0,3.5792,0.4772,172,0.029838,48.57,47.14,0.3666,0.3943,0.9418,3.5893,1079,297,0.0
6.13,3.7634,15.8,3.7455,0.6352,44,0.03032,51.41,52.14,0.1103,0.4701,0.9639,3.7814,932,149,0.0
-13.25,3.9175,21.1,3.9162,0.7387,435,0.033436,63.71,63.38,0.2022,0.5551,0.9682,3.9188,2421,873,0.0
87.13,3.69,25.8,3.683,0.5742,15,0.032319,52.79,54.12,1.5691,0.4842,0.9835,3.6971,1755,131,0.0
-25.06,3.7022,33.7,3.6881,0.5783,160,0.029635,44.73,44.79,0.5162,0.367,0.9588,3.7163,1180,286,0.0
4.42,3.7087,22.7,3.636,0.6012,56,0.032297,44.35,43.0,0.1008,0.3321,0.9848,3.7814,1887,216,0.0
-29.26,3.6339,39.7,3.6234,0.5347,809,0.043478,38.14,38.2,0.6095,0.5092,0.7699,3.6443,1023,1149,0.0
-41.75,3.3382,25.4,3.3292,0.6396,129,0.026776,53.43,53.23,0.7458,0.1906,0.9966,3.3472,2902,190,1.0
15.91,3.6813,31.1,3.6774,0.5744,53,0.028639,62.65,59.76,0.2328,0.8408,0.9913,3.6853,2384,271,0.0
-33.01,3.6169,40.4,3.6036,0.5157,36,0.026775,52.89,53.04,0.5981,0.3944,0.9701,3.6302,1605,177,0.0
-33.27,4.0358,36.8,4.0299,0.8648,306,0.034523,46.03,44.91,0.634,0.7216,0.9166,4.0416,1183,404,0.0
-26.58,3.4906,30.4,3.4785,0.3991,380,0.034843,65.89,62.38,0.4021,0.5932,0.9536,3.5026,2391,1497,0.0
32.18,3.7619,39.2,3.7493,0.6248,550,0.030354,49.2,49.32,0.6115,0.444,0.9362,3.7744,2674,773,0.0
-13.02,3.9908,26.2,3.9873,0.8193,176,0.033977,49.38,51.35,0.2345,0.6574,0.9389,3.9942,984,452,0.0
-21.53,3.6183,9.9,3.6104,0.4995,427,0.029629,52.26,51.57,0.4108,0.6996,0.9566,3.6261,1979,1036,0.0
11.58,4.0303,26.9,4.0138,0.8431,88,0.02705,46.83,45.02,0.2344,0.2211,0.9783,4.0467,1720,171,0.0
-9.66,3.678,22.9,3.6779,0.5755,99,0.032561,42.48,42.72,0.2372,0.5113,0.9754,3.678,1933,281,0.0
-29.9,3.2942,32.4,3.2883,0.2488,0,0.031609,43.29,43.08,0.6966,0.4875,0.9897,3.3001,1466,86,0.0
-48.77,3.4399,24.1,3.4258,0.7606,281,0.022948,61.64,60.12,0.7568,0.328,0.9827,3.454,2778,489,1.0
-5.73,3.32,30.4,3.3121,0.6434,225,0.026601,58.46,55.33,0.1049,0.3269,0.9864,3.3279,3310,624,1.0
-48.94,3.4321,45.0,3.4119,0.7225,48,0.027409,99.03,100.06,0.5318,0.7066,0.9979,3.4523,4939,166,1.0
-21.24,3.0837,31.6,3.0827,0.3424,65,0.025394,103.26,99.55,0.2154,0.5408,0.9983,3.0847,4939,181,1.0